Folder: ipmucmblab_genlib/lib_materialproperties/data

Note: lib_materialproperties/data/304Stainless_NIST_thermalcod_specificheat.txt
#https://trc.nist.gov/cryogenics/materials/304Stainless/304Stainless_rev.htm
Thermal Conductivity	Specific Heat
UNITS	W/(m-K)	J/(kg-K)

a	-1.4087	22.0061
b	1.3982	-127.5528
c	0.2543	303.647
d	-0.6260	-381.0098
e	0.2334	274.0328
f	0.4256	-112.9212
g	-0.4658	24.7593
h	0.1650	-2.239153
i	-0.0199	0

Note: lib_materialproperties/data/Al1100_NIST_thermalcod.txt
# https://trc.nist.gov/cryogenics/materials/1100%20Aluminum/1100%20Aluminum_rev.htm
Thermal Conductivity
UNITS	W/(m-K)

a	23.39172
b	-148.5733
c	422.1917
d	-653.6664
e	607.0402
f	-346.152
g	118.4276
h	-22.2781
i	1.770187

Note: lib_materialproperties/data/ApiezonN_NIST_specificheat.txt
# https://trc.nist.gov/cryogenics/materials/Apiezon%20N/ApiezonN_rev.htm
Specific Heat
UNITS	J/(kg-K)

a	-1.61975
b	3.10923
c	-0.712719
d	4.93675
e	-9.37993
f	7.58304
g	-3.11048
h	0.628309
i	-0.0482634

Note: lib_materialproperties/data/Nylon_NIST_thermalcod_specificheat.txt
# https://trc.nist.gov/cryogenics/materials/Polyamide%20(Nylon)/PolyamideNylon_rev.htm
Thermal Conductivity	Specific Heat
UNITS	W/(m-K)	J/(kg-K)

a	-2.6135	-5.2929
b	2.3239	25.301
c	-4.7586	-54.874
d	7.1602	71.061
e	-4.9155	-52.236
f	1.6324	21.648
g	-0.2507	-4.7317
h	0.0131	0.42518
i	0	0

Note: lib_materialproperties/data/OFHCCpper_NIST_thermalcond_RRR.txt
# https://trc.nist.gov/cryogenics/materials/OFHC%20Copper/OFHC_Copper_rev1.htm
Thermal Conductivity	
RRR = 50	RRR = 100	RRR = 150	RRR = 300	RRR = 500
UNITS	W/(m-K)	W/(m-K)	W/(m-K)	W/(m-K)	W/(m-K)
a	1.8743		2.2154		2.3797		1.357		2.8075
b	-0.41538	-0.47461	-0.4918		0.3981		-0.54074
c	-0.6018		-0.88068	-0.98615	2.669		-1.2777
d	0.13294		0.13871		0.13942		-0.1346		0.15362
e	0.26426		0.29505		0.30475		-0.6683		0.36444
f	-0.0219		-0.02043	-0.019713	0.01342		-0.02105
g	-0.051276	-0.04831	-0.046897	0.05773		-0.051727
h	0.0014871	0.001281	0.0011969	0.0002147	0.0012226
i	0.003723	0.003207	0.0029988	0.			0.0030964

Note: lib_materialproperties/data/RunyanCryogenics.txt
# https://doi.org/10.1016/j.cryogenics.2008.06.002
# Cryogenics 48 (2008) 448â€“454
# Contents lists available at ScienceDirect Cryogenics
# journal homepage: www.elsevier.com/locate/cryogenics
# Thermal conductivity of thermally-isolating polymeric and composite structural support materials between 0.3 and 4 K
# M.C. Runyan a,*, W.C. Jones a,b
# Table 2 Best fit values for the thermal conductivity of materials in the temperature range of 0.3 to 4.2 K
#
# Material alpha (mW/m K), beta, gamma (1/Kn), n
# k(T) = alpha T^(beta+gamma T^n)
# Vespel SP-1, Vespel SP-22, PEEK, PEEK CA30, PEEK GF30, Graphlite CF Rod, Avia Fiberglass Rod, Torlon 4301, G-10/FR-4, Macor, Poco Graphite AXM-5Q
2.23	1.44	3.88	3.37	4.14	8.39	10.3	7.77	12.8	4.00	1.54
1.92	2.11	2.41	3.20	3.07	2.12	2.28	5.46	2.41	2.55	3.36
-0.819	-0.521	-1.43	-2.19	-1.84	-1.05	-0.585	-4.13	-0.921	-0.140	-1.83
0.0589	-0.0163	0.0884	0.0640	0.0553	0.181	0.310	0.0682	0.222	0.809	-0.142

Note: lib_materialproperties/data/sapphire_NIST_expansioncoefficient.txt
# https://trc.nist.gov/cryogenics/materials/Sapphire/Sapphire_rev.htm
Expansion Coefficient
UNITS	10-6/K

a	10.97236
b	-97.23540
c	240.2436
d	-294.9933
e	195.9244
f	-66.89247
g	9.19921
h	0
i	0

Note: lib_materialproperties/data/Silicon_NIST_ThermalExpansionCoeff.txt
# https://trc.nist.gov/cryogenics/materials/Silicon/Silicon.htm
Thermal Expansion Coefficient

UNITS	10-8 / K
a	1.00500E-05
b	-5.99688E-06
c	1.25574E-06
d	-1.12086E-07
e	3.63225E-09
f	2.67708E-02
g   -1.22829E-04
h   1.62544E-18
i	4.72374E+02
j	-3.58796E+04
k   -1.24191E+07
l	1.25972E+09

Note: lib_materialproperties/data/Teflon_NIST_thermalcod_specificheat.txt
# https://trc.nist.gov/cryogenics/materials/Teflon/Teflon_rev.htm
Thermal Conductivity	Specific Heat 
UNITS	W/(m-K)	J/(kg-K)

a	2.7380	31.88256
b	-30.677	-166.51949
c	89.430	352.01879
d	-136.99	-393.44232
e	124.69	259.98072
f	-69.556	-104.61429
g	23.320	24.99276
h	-4.3135	-3.20792
i	0.33829	0.16503

Note: README.md
# ipmucmblab_genlib
This is a set of general libraries that we share within Kavli IPMU CMB group.

History:
	init: 2023-April-19, on the day of CD3 opening symposium, the first set of the libraries are from Tomo.

+++++++++++++++++++++++++++++
General rules:
	- When you add any script, please leave a log in readme in each lib holder
	- When you add any script, please prepare a corresponding test script with together with the instruction.
	- Last but not least, it might not be as obvious as hardware, but people spent time writing codes, and so please respect when you use and be careful when you make a change. 
	- The codes for the group people to use fully and accelerate the output. When you think you will be sharing the codes beyong the group, we should discuss every time. 

+++++++++++++++++++++++++++++

- lib_analysis
	- lib_anallysis.py
	- lib_Clmanip.py: Cl related scripts
	- lib_foreground.py: foreground spectra in ell space
	- lib_likelihood.py: likelihood code for r
- lib_cal
	- calibration related scripts
- lib_daq
	- lab data acquisition related code, e.g. labview
- lib_general
	- general library: lib_m.py: read/write, coordinate transformation, histogram, PSD cal., Gaussian fit, filter, binning, and more
	- lib_bb.py: Planck distribution, blackbody rad., ...
- lib_lb
	- litebird basic parameters. Be careful it might be obsolite. Please refer the latest IMO.
- lib_materialproperties
	- script and collection of the data to plot the material properties.
- lib_optics
	- multi-layer transmission cal., 2nd order EMT, HWP ...
- lib_pmu
	- lib_smb.py: fit function for spin down... 
- TestScripts
	- Test scripts to run the library for new users

File: NIST_ThermalCond_FeNiAlloy.txt
# FeNi Alloys
# Fe-2.25 Ni, Fe-3.5 Ni, Fe-5.0 Ni, Fe-9.0 Ni
# Thermal Conductivity (in W m-1 K-1)
4	1.119	0.9289	0.7754	0.6256
6	1.787	1.455	1.223	0.9814
8	2.46	1.999	1.679	1.349
10	3.137	2.535	2.138	1.716
12	3.809	3.064	2.599	2.08
14	4.47	3.588	3.061	2.443
16	5.121	4.107	3.523	2.804
18	5.76	4.624	3.983	3.163
20	6.39	5.139	4.442	3.521
30	9.423	7.678	6.691	5.293
40	12.28	10.11	8.825	7.022
50	14.96	12.4	10.82	8.688
60	17.42	14.52	12.68	10.28
70	19.67	16.47	14.39	11.79
80	21.71	18.25	15.98	13.21
90	23.56	19.89	17.44	14.55
100	25.23	21.38	18.79	15.81
120	28.14	24.01	21.19	18.09
140	30.56	26.23	23.24	20.07
160	32.62	28.1	24.98	21.77
180	34.36	29.69	26.47	23.23
200	35.84	31.01	27.72	24.46
220	37.06	32.1	28.78	25.49
240	38.01	32.98	29.64	26.32
260	38.7	33.65	30.35	26.98
280	39.09	34.13	30.9	27.48
300	39.17	34.43	31.32	27.83